Folder: advancedlabs/XRD/Task 3

File: UnknownPowder.csv
Angle, TimePerStep, Intensity
10.02,0.5,12
10.3,0.5,12
10.58,0.5,15
10.86,0.5,8
11.14,0.5,21
11.42,0.5,13
11.7,0.5,25
11.98,0.5,14
12.26,0.5,13
12.54,0.5,12
12.82,0.5,13
13.1,0.5,11
13.38,0.5,11
13.66,0.5,13
13.94,0.5,11
14.22,0.5,10
14.5,0.5,9
14.78,0.5,4
15.06,0.5,4
15.34,0.5,9
15.62,0.5,7
15.9,0.5,9
16.18,0.5,8
16.46,0.5,6
16.74,0.5,6
17.02,0.5,8
17.3,0.5,9
17.58,0.5,10
17.86,0.5,7
18.14,0.5,7
18.42,0.5,4
18.7,0.5,3
18.98,0.5,2
19.26,0.5,6
19.54,0.5,6
19.82,0.5,5
20.1,0.5,3
20.38,0.5,10
20.66,0.5,7
20.94,0.5,0
21.22,0.5,4
21.5,0.5,6
21.78,0.5,4
22.06,0.5,7
22.34,0.5,3
22.62,0.5,6
22.9,0.5,10
23.18,0.5,5
23.46,0.5,2
23.74,0.5,2
24.02,0.5,3
24.3,0.5,4
24.58,0.5,4
24.86,0.5,1
25.14,0.5,2
25.42,0.5,8
25.7,0.5,6
25.98,0.5,5
26.26,0.5,11
26.54,0.5,7
26.82,0.5,14
27.1,0.5,6
27.38,0.5,14
27.66,0.5,19
27.94,0.5,40
28.22,0.5,52
28.5,0.5,58
28.78,0.5,55
29.06,0.5,32
29.34,0.5,24
29.62,0.5,16
29.9,0.5,12
30.18,0.5,6
30.46,0.5,4
30.74,0.5,8
31.02,0.5,8
31.3,0.5,2
31.58,0.5,4
31.86,0.5,4
32.14,0.5,6
32.42,0.5,11
32.7,0.5,10
32.98,0.5,21
33.26,0.5,14
33.54,0.5,11
33.82,0.5,6
34.1,0.5,7
34.38,0.5,5
34.66,0.5,3
34.94,0.5,6
35.22,0.5,5
35.5,0.5,1
35.78,0.5,5
36.06,0.5,3
36.34,0.5,4
36.62,0.5,3
36.9,0.5,4
37.18,0.5,2
37.46,0.5,4
37.74,0.5,4
38.02,0.5,6
38.3,0.5,1
38.58,0.5,7
38.86,0.5,2
39.14,0.5,2
39.42,0.5,1
39.7,0.5,2
39.98,0.5,7
40.26,0.5,4
40.54,0.5,6
40.82,0.5,5
41.1,0.5,4
41.38,0.5,0
41.66,0.5,0
41.94,0.5,6
42.22,0.5,8
42.5,0.5,7
42.78,0.5,3
43.06,0.5,11
43.34,0.5,10
43.62,0.5,5
43.9,0.5,5
44.18,0.5,6
44.46,0.5,9
44.74,0.5,4
45.02,0.5,14
45.3,0.5,10
45.58,0.5,12
45.86,0.5,6
46.14,0.5,15
46.42,0.5,21
46.7,0.5,15
46.98,0.5,16
47.26,0.5,37
47.54,0.5,45
47.82,0.5,37
48.1,0.5,20
48.38,0.5,18
48.66,0.5,10
48.94,0.5,3
49.22,0.5,10
49.5,0.5,5
49.78,0.5,7
50.06,0.5,5
50.34,0.5,1
50.62,0.5,4
50.9,0.5,3
51.18,0.5,2
51.46,0.5,3
51.74,0.5,3
52.02,0.5,7
52.3,0.5,1
52.58,0.5,2
52.86,0.5,3
53.14,0.5,3
53.42,0.5,2
53.7,0.5,1
53.98,0.5,3
54.26,0.5,4
54.54,0.5,4
54.82,0.5,6
55.1,0.5,9
55.38,0.5,13
55.66,0.5,21
55.94,0.5,24
56.22,0.5,30
56.5,0.5,21
56.78,0.5,16
57.06,0.5,14
57.34,0.5,14
57.62,0.5,8
57.9,0.5,5
58.18,0.5,8
58.46,0.5,4
58.74,0.5,2
59.02,0.5,8
59.3,0.5,8
59.58,0.5,6
59.86,0.5,3
60.14,0.5,6
60.42,0.5,2
60.7,0.5,0
60.98,0.5,1
61.26,0.5,3
61.54,0.5,0
61.82,0.5,2
62.1,0.5,3
62.38,0.5,2
62.66,0.5,1
62.94,0.5,2
63.22,0.5,5
63.5,0.5,0
63.78,0.5,1
64.06,0.5,2
64.34,0.5,2
64.62,0.5,2
64.9,0.5,1
65.18,0.5,3
65.46,0.5,0
65.74,0.5,1
66.02,0.5,2
66.3,0.5,2
66.58,0.5,4
66.86,0.5,4
67.14,0.5,4
67.42,0.5,0
67.7,0.5,1
67.98,0.5,4
68.26,0.5,5
68.54,0.5,5
68.82,0.5,0
69.1,0.5,5
69.38,0.5,10
69.66,0.5,6
69.94,0.5,5
70.22,0.5,1
70.5,0.5,2
70.78,0.5,2
71.06,0.5,3
71.34,0.5,3
71.62,0.5,1
71.9,0.5,1
72.18,0.5,1
72.46,0.5,2
72.74,0.5,3
73.02,0.5,2
73.3,0.5,2
73.58,0.5,3
73.86,0.5,2
74.14,0.5,2
74.42,0.5,2
74.7,0.5,4
74.98,0.5,3
75.26,0.5,4
75.54,0.5,6
75.82,0.5,6
76.1,0.5,3
76.38,0.5,5
76.66,0.5,9
76.94,0.5,9
77.22,0.5,9
77.5,0.5,9
77.78,0.5,7
78.06,0.5,12
78.34,0.5,3
78.62,0.5,3
78.9,0.5,13
79.18,0.5,8
79.46,0.5,5
79.74,0.5,8
80.02,0.5,10
80.3,0.5,2
80.58,0.5,3
80.86,0.5,4
81.14,0.5,3
81.42,0.5,3
81.7,0.5,4
81.98,0.5,5
82.26,0.5,4
82.54,0.5,2
82.82,0.5,1
83.1,0.5,3
83.38,0.5,3
83.66,0.5,2
83.94,0.5,1
84.22,0.5,2
84.5,0.5,2
84.78,0.5,3
85.06,0.5,5
85.34,0.5,2
85.62,0.5,3
85.9,0.5,5
86.18,0.5,3
86.46,0.5,6
86.74,0.5,3
87.02,0.5,1
87.3,0.5,5
87.58,0.5,5
87.86,0.5,8
88.14,0.5,15
88.42,0.5,10
88.7,0.5,10
88.98,0.5,9
89.26,0.5,6
89.54,0.5,4
89.82,0.5,4
89.98,0.5,2