Folder: advancedlabs/XRD/Task 1

File: Si.csv
Angle, TimePerStep, Intensity
20.04,0.5,2
20.44,0.5,1
20.84,0.5,6
21.24,0.5,6
21.64,0.5,6
22.04,0.5,7
22.44,0.5,8
22.84,0.5,17
23.24,0.5,25
23.64,0.5,14
24.04,0.5,1
24.44,0.5,5
24.84,0.5,6
25.24,0.5,8
25.64,0.5,7
26.04,0.5,9
26.44,0.5,3
26.84,0.5,7
27.24,0.5,18
27.64,0.5,13
28.04,0.5,26
28.44,0.5,824
28.84,0.5,10
29.24,0.5,4
29.64,0.5,5
30.04,0.5,8
30.44,0.5,3
30.84,0.5,6
31.24,0.5,3
31.64,0.5,3
32.04,0.5,2
32.44,0.5,5
32.84,0.5,4
33.24,0.5,4
33.64,0.5,3
34.04,0.5,4
34.44,0.5,0
34.84,0.5,3
35.24,0.5,5
35.64,0.5,4
36.04,0.5,6
36.44,0.5,7
36.84,0.5,2
37.24,0.5,1
37.64,0.5,3
38.04,0.5,7
38.44,0.5,1
38.84,0.5,2
39.24,0.5,2
39.64,0.5,4
40.04,0.5,2
40.44,0.5,1
40.84,0.5,2
41.24,0.5,1
41.64,0.5,2
42.04,0.5,0
42.44,0.5,5
42.84,0.5,3
43.24,0.5,3
43.64,0.5,0
44.04,0.5,7
44.44,0.5,4
44.84,0.5,4
45.24,0.5,10
45.64,0.5,4
46.04,0.5,9
46.44,0.5,5
46.84,0.5,14
47.24,0.5,498
47.64,0.5,15
48.04,0.5,6
48.44,0.5,7
48.84,0.5,4
49.24,0.5,9
49.64,0.5,5
50.04,0.5,1
50.44,0.5,2
50.84,0.5,4
51.24,0.5,4
51.64,0.5,4
52.04,0.5,3
52.44,0.5,5
52.84,0.5,2
53.24,0.5,3
53.64,0.5,11
54.04,0.5,2
54.44,0.5,4
54.84,0.5,3
55.24,0.5,7
55.64,0.5,14
56.04,0.5,218
56.44,0.5,15
56.84,0.5,1
57.24,0.5,3
57.64,0.5,2
58.04,0.5,1
58.44,0.5,4
58.84,0.5,0
59.24,0.5,1
59.64,0.5,4
60.04,0.5,1
60.44,0.5,2
60.84,0.5,3
61.24,0.5,4
61.64,0.5,5
62.04,0.5,3
62.44,0.5,0
62.84,0.5,6
63.24,0.5,3
63.64,0.5,1
64.04,0.5,1
64.44,0.5,2
64.84,0.5,4
65.24,0.5,2
65.64,0.5,3
66.04,0.5,1
66.44,0.5,3
66.84,0.5,3
67.24,0.5,0
67.64,0.5,2
68.04,0.5,1
68.44,0.5,2
68.84,0.5,6
69.24,0.5,26
69.64,0.5,2
70.04,0.5,2
70.44,0.5,1
70.84,0.5,5
71.24,0.5,3
71.64,0.5,1
72.04,0.5,4
72.44,0.5,3
72.84,0.5,3
73.24,0.5,0
73.64,0.5,2
74.04,0.5,1
74.44,0.5,2
74.84,0.5,1
75.24,0.5,2
75.64,0.5,3
76.04,0.5,12
76.44,0.5,56
76.84,0.5,9
77.24,0.5,2
77.64,0.5,1
78.04,0.5,2
78.44,0.5,2
78.84,0.5,1
79.24,0.5,2
79.64,0.5,4
80.04,0.5,0
80.44,0.5,5
80.84,0.5,2
81.24,0.5,1
81.64,0.5,0
82.04,0.5,3
82.44,0.5,0
82.84,0.5,1
83.24,0.5,3
83.64,0.5,4
84.04,0.5,1
84.44,0.5,1
84.84,0.5,0
85.24,0.5,1
85.64,0.5,1
86.04,0.5,2
86.44,0.5,3
86.84,0.5,7
87.24,0.5,3
87.64,0.5,10
88.04,0.5,176
88.44,0.5,18
88.84,0.5,6
89.24,0.5,4
89.64,0.5,2
90.04,0.5,3
90.44,0.5,1
90.84,0.5,0
91.24,0.5,1
91.64,0.5,3
92.04,0.5,1
92.44,0.5,0
92.84,0.5,0
93.24,0.5,2
93.64,0.5,3
94.04,0.5,5
94.44,0.5,3
94.84,0.5,37
95.24,0.5,54
95.64,0.5,4
96.04,0.5,0
96.44,0.5,1
96.84,0.5,4
97.24,0.5,3
97.64,0.5,1
98.04,0.5,0
98.44,0.5,2
98.84,0.5,1
99.24,0.5,1
99.64,0.5,0
100.04,0.5,3
100.44,0.5,3
100.84,0.5,0
101.24,0.5,3
101.64,0.5,0
102.04,0.5,1
102.44,0.5,4
102.84,0.5,0
103.24,0.5,2
103.64,0.5,1
104.04,0.5,3
104.44,0.5,2
104.84,0.5,5
105.24,0.5,5
105.64,0.5,2
106.04,0.5,2
106.44,0.5,8
106.84,0.5,27
107.24,0.5,15
107.64,0.5,4
108.04,0.5,4
108.44,0.5,4
108.84,0.5,1
109.24,0.5,3
109.64,0.5,2
110.04,0.5,0
110.44,0.5,3
110.84,0.5,1
111.24,0.5,3
111.64,0.5,4
112.04,0.5,2
112.44,0.5,1
112.84,0.5,4
113.24,0.5,7
113.64,0.5,7
114.04,0.5,49
114.44,0.5,32
114.84,0.5,9
115.24,0.5,4
115.64,0.5,2
116.04,0.5,2
116.44,0.5,1
116.84,0.5,5
117.24,0.5,6
117.64,0.5,3
118.04,0.5,4
118.44,0.5,1
118.84,0.5,2
119.24,0.5,0
119.64,0.5,5
120.04,0.5,1
120.44,0.5,1
120.84,0.5,2
121.24,0.5,0
121.64,0.5,1
122.04,0.5,3
122.44,0.5,2
122.84,0.5,1
123.24,0.5,3
123.64,0.5,6
124.04,0.5,3
124.44,0.5,5
124.84,0.5,2
125.24,0.5,2
125.64,0.5,2
126.04,0.5,5
126.44,0.5,4
126.84,0.5,4
127.24,0.5,12
127.64,0.5,81
128.04,0.5,25
128.44,0.5,12
128.84,0.5,7
129.24,0.5,5
129.64,0.5,1
130.04,0.5,2
130.44,0.5,1
130.84,0.5,3
131.24,0.5,4
131.64,0.5,5
132.04,0.5,0
132.44,0.5,3
132.84,0.5,1
133.24,0.5,3
133.64,0.5,3
134.04,0.5,3
134.44,0.5,4
134.84,0.5,5
135.24,0.5,3
135.64,0.5,3
136.04,0.5,2
136.44,0.5,6
136.84,0.5,22
137.24,0.5,13
137.64,0.5,9
138.04,0.5,4
138.44,0.5,3
138.84,0.5,4
139.24,0.5,2
139.64,0.5,0
139.96,0.5,2

File: ZnO.csv
Angle, TimePerStep, Intensity
30.02,0.5,10
30.36,0.5,13
30.7,0.5,8
31.04,0.5,16
31.38,0.5,36
31.72,0.5,1069
32.06,0.5,8
32.4,0.5,9
32.74,0.5,3
33.08,0.5,7
33.42,0.5,5
33.76,0.5,7
34.1,0.5,12
34.44,0.5,232
34.78,0.5,11
35.12,0.5,11
35.46,0.5,11
35.8,0.5,26
36.14,0.5,1389
36.48,0.5,15
36.82,0.5,6
37.16,0.5,10
37.5,0.5,5
37.84,0.5,8
38.18,0.5,8
38.52,0.5,6
38.86,0.5,7
39.2,0.5,1
39.54,0.5,2
39.88,0.5,6
40.22,0.5,4
40.56,0.5,3
40.9,0.5,6
41.24,0.5,5
41.58,0.5,8
41.92,0.5,4
42.26,0.5,5
42.6,0.5,3
42.94,0.5,5
43.28,0.5,6
43.62,0.5,5
43.96,0.5,2
44.3,0.5,3
44.64,0.5,4
44.98,0.5,4
45.32,0.5,3
45.66,0.5,6
46,0.5,5
46.34,0.5,5
46.68,0.5,8
47.02,0.5,4
47.36,0.5,43
47.7,0.5,34
48.04,0.5,15
48.38,0.5,10
48.72,0.5,7
49.06,0.5,5
49.4,0.5,4
49.74,0.5,5
50.08,0.5,5
50.42,0.5,4
50.76,0.5,5
51.1,0.5,5
51.44,0.5,5
51.78,0.5,3
52.12,0.5,7
52.46,0.5,3
52.8,0.5,4
53.14,0.5,5
53.48,0.5,7
53.82,0.5,8
54.16,0.5,8
54.5,0.5,4
54.84,0.5,7
55.18,0.5,8
55.52,0.5,10
55.86,0.5,6
56.2,0.5,27
56.54,0.5,685
56.88,0.5,15
57.22,0.5,9
57.56,0.5,7
57.9,0.5,5
58.24,0.5,7
58.58,0.5,2
58.92,0.5,2
59.26,0.5,6
59.6,0.5,10
59.94,0.5,5
60.28,0.5,4
60.62,0.5,10
60.96,0.5,10
61.3,0.5,6
61.64,0.5,8
61.98,0.5,6
62.32,0.5,12
62.66,0.5,19
63,0.5,145
63.34,0.5,5
63.68,0.5,3
64.02,0.5,6
64.36,0.5,9
64.7,0.5,6
65.04,0.5,5
65.38,0.5,7
65.72,0.5,5
66.06,0.5,6
66.4,0.5,51
66.74,0.5,5
67.08,0.5,9
67.42,0.5,6
67.76,0.5,49
68.1,0.5,197
68.44,0.5,10
68.78,0.5,21
69.12,0.5,97
69.46,0.5,8
69.8,0.5,7
70.14,0.5,5
70.48,0.5,9
70.82,0.5,6
71.16,0.5,7
71.5,0.5,3
71.84,0.5,5
72.18,0.5,7
72.52,0.5,13
72.86,0.5,15
73.2,0.5,2
73.54,0.5,3
73.88,0.5,2
74.22,0.5,5
74.56,0.5,10
74.9,0.5,4
75.24,0.5,7
75.58,0.5,6
75.92,0.5,2
76.26,0.5,7
76.6,0.5,6
76.94,0.5,70
77.28,0.5,11
77.62,0.5,4
77.96,0.5,5
78.3,0.5,6
78.64,0.5,5
78.98,0.5,5
79.32,0.5,5
79.66,0.5,5
80,0.5,5
80.34,0.5,3
80.68,0.5,2
81.02,0.5,5
81.36,0.5,10
81.7,0.5,11
82.04,0.5,3
82.38,0.5,5
82.72,0.5,5
83.06,0.5,4
83.4,0.5,9
83.74,0.5,3
84.08,0.5,4
84.42,0.5,4
84.76,0.5,1
85.1,0.5,3
85.44,0.5,2
85.78,0.5,7
86.12,0.5,6
86.46,0.5,4
86.8,0.5,6
87.14,0.5,1
87.48,0.5,3
87.82,0.5,5
88.16,0.5,2
88.5,0.5,11
88.84,0.5,6
89.18,0.5,10
89.52,0.5,41
89.86,0.5,39
90.2,0.5,5
90.54,0.5,5
90.88,0.5,6
91.22,0.5,8
91.56,0.5,2
91.9,0.5,3
92.24,0.5,8
92.58,0.5,5
92.92,0.5,18
93.26,0.5,17
93.6,0.5,5
93.94,0.5,4
94.28,0.5,6
94.62,0.5,8
94.96,0.5,14
95.3,0.5,171
95.64,0.5,83
95.98,0.5,5
96.32,0.5,6
96.66,0.5,8
97,0.5,9
97.34,0.5,3
97.68,0.5,8
98.02,0.5,7
98.36,0.5,10
98.7,0.5,45
99.04,0.5,22
99.38,0.5,10
99.72,0.5,3
100.06,0.5,8
100.4,0.5,5
100.74,0.5,10
101.08,0.5,5
101.42,0.5,3
101.76,0.5,10
102.1,0.5,4
102.44,0.5,6
102.78,0.5,19
103.12,0.5,18
103.46,0.5,12
103.8,0.5,7
104.14,0.5,27
104.48,0.5,20
104.82,0.5,14
105.16,0.5,5
105.5,0.5,7
105.84,0.5,8
106.18,0.5,4
106.52,0.5,4
106.86,0.5,4
107.2,0.5,10
107.54,0.5,19
107.88,0.5,14
108.22,0.5,4
108.56,0.5,3
108.9,0.5,6
109.24,0.5,8
109.58,0.5,9
109.92,0.5,7
110.26,0.5,34
110.6,0.5,24
110.94,0.5,15
111.28,0.5,6
111.62,0.5,5
111.96,0.5,8
112.3,0.5,3
112.64,0.5,9
112.98,0.5,5
113.32,0.5,10
113.66,0.5,6
114,0.5,5
114.34,0.5,5
114.68,0.5,7
115.02,0.5,7
115.36,0.5,6
115.7,0.5,7
116.04,0.5,18
116.38,0.5,134
116.72,0.5,64
117.06,0.5,19
117.4,0.5,4
117.74,0.5,7
118.08,0.5,5
118.42,0.5,5
118.76,0.5,6
119.1,0.5,5
119.44,0.5,7
119.78,0.5,6
120.12,0.5,6
120.46,0.5,7
120.8,0.5,5
121.14,0.5,7
121.48,0.5,51
121.82,0.5,29
122.16,0.5,39
122.5,0.5,4
122.84,0.5,5
123.18,0.5,6
123.52,0.5,5
123.86,0.5,5
124.2,0.5,8
124.54,0.5,8
124.88,0.5,8
125.22,0.5,9
125.56,0.5,15
125.9,0.5,3
126.24,0.5,8
126.58,0.5,3
126.92,0.5,6
127.26,0.5,7
127.6,0.5,7
127.94,0.5,5
128.28,0.5,2
128.62,0.5,4
128.96,0.5,5
129.3,0.5,4
129.64,0.5,2
129.98,0.5,7